AccX1,AccY1,AccZ1,GyrX1,GyrY1,GyrZ1,AccX2,AccY2,AccZ2,GyrX2,GyrY2,GyrZ2,AccX3,AccY3,AccZ3,GyrX3,GyrY3,GyrZ3,AccX4,AccY4,AccZ4,GyrX4,GyrY4,GyrZ4,AccX5,AccY5,AccZ5,GyrX5,GyrY5,GyrZ5,AccX6,AccY6,AccZ6,GyrX6,GyrY6,GyrZ6,AccX7,AccY7,AccZ7,GyrX7,GyrY7,GyrZ7,AccX8,AccY8,AccZ8,GyrX8,GyrY8,GyrZ8,AccX9,AccY9,AccZ9,GyrX9,GyrY9,GyrZ9,AccX10,AccY10,AccZ10,GyrX10,GyrY10,GyrZ10,AccX11,AccY11,AccZ11,GyrX11,GyrY11,GyrZ11,AccX12,AccY12,AccZ12,GyrX12,GyrY12,GyrZ12,AccX13,AccY13,AccZ13,GyrX13,GyrY13,GyrZ13,AccX14,AccY14,AccZ14,GyrX14,GyrY14,GyrZ14,AccX15,AccY15,AccZ15,GyrX15,GyrY15,GyrZ15,AccX16,AccY16,AccZ16,GyrX16,GyrY16,GyrZ16,AccX17,AccY17,AccZ17,GyrX17,GyrY17,GyrZ17,AccX18,AccY18,AccZ18,GyrX18,GyrY18,GyrZ18,AccX19,AccY19,AccZ19,GyrX19,GyrY19,GyrZ19,AccX20,AccY20,AccZ20,GyrX20,GyrY20,GyrZ20,Label
-28,153,27,-393,-330,-130,-22,46,-23,15,9,-718,-48,-14,32,-97,-149,-795,-60,-61,-3,-334,93,-417,-66,10,62,360,99,-224,-76,-26,-3,116,325,-309,-67,18,-43,-33,-23,-774,-78,-147,59,-540,-53,357,15,70,12,96,134,705,66,99,-21,337,46,399,-42,-132,-5,58,-386,682,40,87,11,547,102,505,-27,-102,-17,38,-397,1044,9,89,39,-137,500,351,-74,-176,-99,-134,-381,726,-19,82,100,780,-225,1462,21,51,-7,-519,586,132,27,70,-24,869,-160,190,72,12,2,-106,-280,-181,78,46,-10,-260,285,-35,down
90,6,-22,-58,13,-765,70,-2,-36,7,-18,-286,53,5,-13,-359,-106,-649,39,2,5,376,51,-481,21,-62,-28,-707,59,-516,-1,-28,-17,213,-80,-206,3,-42,15,-145,74,-285,-3,-19,-14,-120,5,-86,-14,-27,12,83,-67,18,-10,-24,2,-182,140,97,-29,151,24,-315,-7,-254,15,58,-10,657,-73,-302,-57,-23,-10,-1091,-48,-710,-17,28,50,81,-138,-440,-88,-47,22,-32,51,-390,-111,-37,11,616,143,-552,-80,-75,9,-227,-115,-69,-38,-44,-23,226,80,79,15,49,32,-248,-115,-66,-24,-117,-4,-352,342,1248,down
86,209,-3,833,-19,131,-50,-212,13,-214,80,883,71,189,-30,639,-100,958,-15,19,-31,-191,-90,210,-61,-107,16,-47,-211,137,-3,-27,6,165,-32,1006,-12,81,16,232,-54,714,25,-45,2,-160,-79,460,27,91,9,606,-114,250,64,-22,-8,-288,257,71,87,75,-27,-100,93,-781,63,-22,-20,-295,132,-743,49,-23,6,286,-98,-493,25,14,-26,-201,194,-360,12,-32,10,233,-203,-86,36,12,-32,-489,179,-362,5,-32,-6,5,-28,-369,-3,-55,-10,-337,49,-14,6,-7,-10,367,-236,-36,-11,-16,15,-441,85,-77,down
-49,142,38,-309,-90,-951,-26,-53,-1,191,87,-217,-48,12,-21,-429,-127,-182,-68,-15,85,205,-4,-479,-56,33,-20,610,328,-554,-73,-76,-3,-320,-161,-434,-36,-11,0,-475,-196,152,4,-69,41,247,401,588,-18,-2,-42,267,-132,194,49,118,68,249,593,908,-50,-103,-122,-816,-482,-263,103,273,-12,1363,-524,2454,-53,-254,96,-161,14,-210,-40,4,-20,214,93,753,-20,-74,-23,-278,-46,994,32,150,14,81,-51,31,30,-56,14,-112,103,18,40,72,-3,404,104,194,81,29,-14,-106,-22,-665,67,10,-22,4,112,-494,down
29,-55,-29,-212,-148,-438,24,23,37,182,65,-194,33,-29,-32,-109,67,-214,19,10,1,-231,-20,-212,26,-20,-23,107,71,-166,9,7,-8,-195,-98,-216,1,-28,17,-83,123,-106,16,11,-7,63,73,-85,-3,-28,-43,-378,-42,-194,-3,-8,52,295,-85,-37,-131,88,27,-572,134,-1500,-58,-2,18,73,-297,-419,-75,-98,17,71,375,-26,6,25,-15,61,-66,195,-48,-41,-22,-149,-114,10,-9,26,65,370,144,131,4,19,-47,-81,-198,280,-7,11,21,272,155,-37,-18,-25,-23,-322,114,-44,-41,-255,2,-642,-250,89,down
121,519,-44,1786,269,2592,-51,-284,32,-787,-341,-1049,-63,-162,2,-447,-467,1646,0,187,67,613,557,628,29,-14,-63,-129,142,92,32,46,22,411,-247,150,48,24,17,138,-32,-193,50,19,-10,-127,95,-337,68,-17,-33,-78,47,-294,35,-3,-14,98,-224,-313,23,-18,7,-166,6,-142,36,33,2,18,86,-171,28,16,-20,-185,122,-376,16,0,-4,-161,10,-338,35,-2,-17,114,80,-211,-3,-42,-15,-275,-83,-405,-16,-67,27,-87,99,-132,-4,-20,-35,-41,-93,273,2,37,41,297,-59,-103,-18,-44,-29,-144,176,12,down
-3,152,50,-2,-345,4,-7,37,-6,-134,566,-478,-23,29,-42,-333,-641,-224,-84,-39,76,199,320,-1259,-54,-70,-41,-96,-54,-9,-80,-24,69,-176,85,-252,-32,-19,-10,329,146,-142,-41,-84,-43,-529,-285,135,-8,25,101,608,387,305,1,9,-122,-39,-126,183,13,2,54,368,-169,624,-15,-50,-2,-442,62,344,-7,-150,16,1080,127,2070,120,424,-77,-840,29,-1337,-96,-285,5,-89,-567,515,-75,-47,71,-170,36,1777,55,156,-3,640,275,-166,9,-65,-8,-96,2,338,19,45,9,267,-156,393,58,74,-2,53,123,-230,down
62,6,-9,17,-56,-491,53,-11,-23,-34,111,-378,6,-31,-6,-78,-281,-259,33,14,25,83,216,35,49,20,-53,-133,-86,-242,33,23,15,-200,113,-180,27,16,-15,193,16,-499,17,-28,-6,-174,182,-244,-2,-31,-56,-510,-204,-366,-15,-58,64,301,49,-52,-36,159,31,0,-19,-56,-41,-3,-29,-612,179,-884,-17,-22,18,170,-156,-288,-83,-53,-30,-142,36,-569,-46,25,71,472,-192,-304,-92,-136,-55,-693,191,-193,-22,-22,43,716,31,211,-23,-69,-9,-582,-169,630,33,86,33,516,568,439,40,86,-67,297,-401,51,down
-25,-125,39,-740,-160,157,-5,-29,10,1224,146,1344,30,186,-22,-584,176,110,3,-39,-52,-462,-257,-183,-86,-195,56,426,-372,982,1,96,38,157,414,1062,39,71,-34,72,52,-66,29,-1,-5,150,-215,80,33,41,26,208,-58,-88,51,12,-9,-123,127,-238,48,10,-22,187,59,-185,50,18,-11,-68,-191,-364,31,-5,-8,-149,97,-314,18,-2,0,-52,28,-247,31,9,-25,147,42,-399,16,-17,9,-410,-47,-257,5,-44,-12,-85,278,-113,7,-8,-26,-269,-83,-214,-8,-33,9,160,-153,-30,-13,-25,16,-25,32,17,down
-27,159,44,-210,1,-600,-34,-15,-14,-124,132,-306,-36,12,16,190,92,-484,-67,-94,-21,-572,-53,-198,-46,31,37,348,-307,-150,-15,-68,14,-50,511,-194,-50,-27,-40,11,-307,25,-4,-6,38,295,-194,247,-11,-23,-40,4,102,346,8,98,47,330,-93,237,3,-51,-8,-1001,388,61,-98,-235,58,2219,-329,3004,212,578,-143,-1946,435,-2991,-133,-431,8,568,-834,1360,-38,-3,102,-205,321,1562,36,111,-48,194,242,1,8,-32,-8,189,-345,217,5,-6,45,-18,113,388,42,63,-4,406,190,-13,55,-7,-38,23,-109,-282,down
36,26,18,51,-98,-162,46,34,-19,-6,-20,-332,31,-36,1,-124,108,-241,42,42,-17,85,-121,-216,36,3,-1,-71,-52,-277,13,-24,-23,-336,360,-175,27,24,-10,-47,-145,-433,9,-21,7,-252,137,-222,-3,-34,-14,-87,3,-172,0,-25,2,258,-78,-95,-118,79,76,-372,-79,-1060,-24,17,-9,-13,335,-200,-63,-73,-38,-51,-190,-714,-38,-56,25,9,-175,292,-52,-39,25,-31,198,-107,-21,-36,-12,-106,135,645,29,124,17,426,-171,54,-10,-19,-39,-537,-35,307,3,30,28,609,23,-372,-14,5,-4,11,-296,367,down
-14,-28,19,-132,400,307,32,-74,-83,-378,-541,-385,-4,215,102,878,687,1959,-2,-127,-54,-261,-207,-943,-51,-137,-28,-692,-445,830,-54,-6,93,900,147,1293,22,76,-41,-103,334,457,46,71,1,373,-238,-159,48,29,8,198,24,-60,29,-3,-30,-657,12,-227,45,34,30,864,-99,-115,61,4,-30,-355,54,-399,37,-33,-9,-158,64,-424,20,1,-2,-321,-134,-173,26,7,0,247,91,195,52,82,-12,64,130,-659,1,-68,-31,-315,-26,-354,9,-19,-13,52,14,-239,-10,-58,-9,-443,-98,-195,-14,-31,44,163,50,41,down
10,157,0,-118,-39,-102,-40,-7,-6,-117,52,-693,-59,-34,33,-128,-11,-129,-40,8,5,443,164,-519,-51,-51,-17,-465,-110,168,-34,-10,29,6,374,-451,-35,-39,-28,-312,-456,163,-42,-48,34,493,227,-76,-7,14,1,-17,-209,422,-5,2,-1,140,136,77,23,58,-3,195,-177,376,-15,-39,-12,-558,331,19,23,-95,-86,-622,-931,-1085,-15,310,233,2526,1360,4181,22,-187,-233,-1263,-489,-2401,-49,-159,51,-445,-1132,1240,-41,84,105,35,724,883,25,11,-56,479,190,116,22,42,13,152,-152,260,31,38,14,244,29,24,down
27,3,-19,36,2,15,55,51,1,95,11,-230,49,-27,-37,-167,102,-344,44,-11,-19,16,-194,-243,39,40,25,94,-40,-136,21,-6,-22,-347,74,-287,35,34,0,-71,139,-283,33,8,-10,-14,61,-482,-7,-63,-23,-181,-53,-149,3,-17,11,27,57,-226,-107,127,34,-698,-118,-854,-61,-61,50,396,586,-873,-28,-27,-88,-157,-424,-101,-84,-92,60,317,-218,-397,-4,-42,90,-718,278,479,-20,-8,-160,1251,264,124,-11,104,51,-769,-703,-291,-49,-157,47,-521,414,545,25,63,12,17,420,853,52,49,-12,283,224,494,down
-50,-219,-71,879,-685,427,76,357,36,-469,-117,-312,-21,-77,-7,459,-268,115,-44,-133,39,-77,-35,637,-16,-15,-12,54,178,578,-6,27,7,135,-54,708,12,51,-5,-160,-21,206,44,33,13,364,97,38,48,14,-30,-218,-121,-294,37,6,-1,265,-12,-213,29,-2,8,-271,-327,-255,26,20,17,-93,392,139,61,49,-38,122,47,-456,37,-13,-17,-58,125,-187,22,11,-22,-88,94,-344,15,-12,12,-79,-48,-456,3,-63,-35,-305,66,-160,-1,-9,38,-67,21,57,11,4,-30,183,-13,-104,-26,-69,-30,-319,-80,-192,down
-16,152,56,-8,-66,-158,-26,25,23,105,171,-615,-15,22,-8,171,-163,-255,-84,-64,10,-512,124,-446,-9,27,38,435,-44,-222,-115,-130,-26,-644,365,-157,-25,19,15,510,-52,-22,-23,-43,-13,-311,-239,335,1,-2,-9,516,183,97,1,33,-16,-243,-380,171,-20,-37,89,-88,236,373,41,30,-78,-17,121,-59,-7,41,64,1217,-260,3719,41,-18,-89,-899,85,-2465,-52,-93,12,-205,-394,1007,-27,30,56,470,-10,703,2,13,-10,103,275,365,36,28,-19,44,-86,246,25,15,3,-175,-77,-98,40,30,11,486,-14,109,down
63,68,-23,29,-32,-443,39,-18,1,-140,-103,-408,39,16,23,52,80,-183,48,-7,-29,-141,264,-368,38,16,-25,-221,-160,-305,10,-34,6,-204,170,-218,22,4,-18,218,43,-333,-4,-34,-16,-245,-9,-260,-2,-45,-2,-85,1,40,-7,-8,13,-27,-50,-26,2,168,34,66,-21,-248,-59,-57,-23,-516,100,-756,-24,-7,62,201,53,-275,-71,-39,-49,-237,12,-102,-20,21,69,599,155,-297,-62,-85,-70,-328,30,-166,-36,-56,25,-191,-217,162,6,1,53,187,32,431,-8,-1,-64,-89,161,276,10,61,47,376,-246,143,down
-9,22,-44,-272,-76,264,7,15,41,519,133,-62,-3,10,-67,-807,-32,271,9,46,68,1355,-304,54,-17,-69,-26,-1187,435,190,-23,-138,-10,371,-312,384,26,179,1,-114,315,-154,-22,-134,-46,-106,-505,191,-53,-110,81,269,-29,1147,1,114,-33,224,361,669,1,10,-13,121,-363,413,25,77,47,244,38,371,58,55,-11,162,59,-283,74,42,-25,-155,-51,-377,65,17,24,-54,58,-441,56,10,-54,-56,64,-663,25,-21,9,-204,-60,-368,20,-33,-6,-325,185,-568,7,-42,-7,-17,-24,172,1,-37,-1,272,153,-242,down
-145,64,40,-350,16,-1391,-36,-67,-16,-285,34,-95,-20,15,6,186,-60,-111,-26,15,17,-162,-42,-15,-31,-59,-4,-45,-4,159,-33,10,4,309,16,180,9,8,-2,178,101,247,-1,22,-12,-436,15,72,30,16,14,365,131,60,-213,-291,70,1226,-395,2441,246,470,-123,-1358,196,-1769,-42,-238,12,173,-308,519,-32,-44,30,-260,-69,346,-8,4,-1,391,71,841,13,47,9,-38,-1,364,25,23,0,166,12,61,19,17,-11,92,-79,-12,39,9,1,40,-2,-81,29,9,8,57,3,-168,34,5,-1,-296,-22,-196,down
38,-42,23,-113,160,-288,33,33,-22,463,324,233,38,29,-58,-255,-255,-369,13,-21,26,-18,18,-218,24,37,-15,-36,192,-148,27,-4,-21,-267,-146,-641,-22,-23,49,232,12,-61,16,-33,-55,-100,244,-63,4,-18,-28,-319,-261,-62,-19,-23,66,180,-41,58,-79,130,32,-648,5,-1093,-29,-30,34,650,266,-370,-56,-80,-69,-331,-123,-12,-33,33,54,279,26,70,-41,-25,-10,-248,168,-597,-30,-58,-31,-270,-224,418,-10,54,29,708,-280,168,6,-9,19,-480,433,78,-7,3,-24,331,-283,284,-16,16,15,124,96,149,down
17,36,2,276,89,27,-243,-307,118,1266,-223,3043,320,556,-155,-2255,826,-2844,-91,-389,-45,429,-788,1521,-8,59,94,406,-178,308,-25,-63,-22,1,19,299,-21,-17,-13,-54,-7,682,19,75,5,249,-26,384,27,58,8,98,42,200,91,120,-9,224,1,-239,63,12,-22,-260,-34,-729,46,-12,33,-73,-21,-419,41,-34,-6,-187,465,-376,40,-2,-46,33,-470,-335,16,-34,34,-24,429,-320,-1,-25,-71,-272,-259,-238,-4,-33,47,96,170,-13,-2,-15,-36,-134,-18,-253,-26,-59,12,-54,9,181,9,33,25,349,38,8,down
