AccX1,AccY1,AccZ1,GyrX1,GyrY1,GyrZ1,AccX2,AccY2,AccZ2,GyrX2,GyrY2,GyrZ2,AccX3,AccY3,AccZ3,GyrX3,GyrY3,GyrZ3,AccX4,AccY4,AccZ4,GyrX4,GyrY4,GyrZ4,AccX5,AccY5,AccZ5,GyrX5,GyrY5,GyrZ5,AccX6,AccY6,AccZ6,GyrX6,GyrY6,GyrZ6,AccX7,AccY7,AccZ7,GyrX7,GyrY7,GyrZ7,AccX8,AccY8,AccZ8,GyrX8,GyrY8,GyrZ8,AccX9,AccY9,AccZ9,GyrX9,GyrY9,GyrZ9,AccX10,AccY10,AccZ10,GyrX10,GyrY10,GyrZ10,AccX11,AccY11,AccZ11,GyrX11,GyrY11,GyrZ11,AccX12,AccY12,AccZ12,GyrX12,GyrY12,GyrZ12,AccX13,AccY13,AccZ13,GyrX13,GyrY13,GyrZ13,AccX14,AccY14,AccZ14,GyrX14,GyrY14,GyrZ14,AccX15,AccY15,AccZ15,GyrX15,GyrY15,GyrZ15,AccX16,AccY16,AccZ16,GyrX16,GyrY16,GyrZ16,AccX17,AccY17,AccZ17,GyrX17,GyrY17,GyrZ17,AccX18,AccY18,AccZ18,GyrX18,GyrY18,GyrZ18,AccX19,AccY19,AccZ19,GyrX19,GyrY19,GyrZ19,AccX20,AccY20,AccZ20,GyrX20,GyrY20,GyrZ20,Label
-68,-16,-143,470,-1589,-138,4,53,-43,-5,-378,325,-8,16,25,-192,-570,-155,4,10,24,36,-329,-51,-13,7,35,15,-433,-245,-24,-43,51,88,-82,147,-11,18,21,204,-136,18,21,-1,74,194,313,142,38,43,-10,-843,352,-364,23,-31,19,-87,213,52,36,-9,-2,197,277,-65,-9,-17,-76,129,-138,-81,-23,10,77,-133,77,-43,11,16,-16,245,364,-1,-19,-58,22,-69,207,312,13,57,-12,-26,357,-74,0,-9,-28,-253,-174,-31,13,20,71,366,301,76,-7,-43,36,-89,536,-9,3,-27,21,199,224,115,left
-11,14,-37,-62,244,187,-19,14,32,31,463,30,-6,18,-60,-105,247,91,-3,34,16,144,201,41,-3,17,-53,-286,547,-193,-27,-51,-11,172,-157,-165,-23,-7,-11,3,290,212,-20,-21,-23,257,381,90,13,54,-84,-129,-233,49,-15,-34,-8,-392,483,-287,121,2,101,271,-2957,133,2,9,-42,86,339,-164,-6,14,-31,-69,-142,-44,-7,-8,34,-88,144,-165,4,4,-23,17,-91,234,-9,-24,0,-206,-81,-105,5,9,-3,126,-55,15,-1,-5,19,50,-56,12,2,6,-16,-28,-8,67,2,10,24,68,94,-2,left
14,35,-22,-44,-71,-114,-1,-35,26,-124,81,-156,-18,-31,-8,138,113,101,-18,-1,-3,-56,-83,142,5,2,9,183,66,0,6,22,-33,16,-200,158,20,33,31,-86,57,-207,-4,-44,-22,-175,23,-64,0,-2,20,-18,54,120,-18,20,-12,94,116,34,4,2,-5,-50,-120,-46,-6,-21,11,24,76,-29,5,23,-9,-14,-121,3,-3,-10,14,27,24,32,0,-8,1,-50,47,7,3,13,-2,55,-14,-51,4,-15,-11,88,22,77,8,14,-3,-108,-151,-79,-5,3,31,116,105,11,5,1,-23,-65,2,39,left
-51,-17,-156,-80,-313,-123,-80,-85,-114,-333,-561,297,-3,89,-77,540,-945,77,-79,7,-1,-340,-1356,-92,-52,42,186,810,-1009,-75,-72,-40,152,-461,-338,-488,43,-1,164,971,329,159,65,2,31,-1462,1283,-434,77,-2,47,981,469,-34,74,-11,-42,-183,683,154,40,-4,-105,-1264,523,-51,2,-53,14,419,27,329,3,21,63,142,470,231,46,18,24,221,242,-7,-5,11,43,79,774,98,7,-3,-64,113,371,-39,-7,12,4,85,200,49,-50,-44,-3,-336,498,128,-14,21,6,408,480,130,-29,20,-114,-370,209,-8,left
-20,-10,13,130,105,148,-14,27,-63,-244,115,29,7,-9,14,480,134,-31,-4,19,-72,-851,-75,-37,19,7,58,146,-24,-242,9,-10,-18,324,-139,-47,-30,-12,12,825,116,54,17,9,-114,-1045,75,118,21,27,97,764,-181,-321,28,27,-126,-626,-735,133,30,-72,147,-63,-1609,-271,21,-2,3,429,290,80,-6,-26,-31,-209,-182,12,5,26,35,66,66,80,-1,17,-5,31,124,-136,-21,-6,-46,-98,-8,49,-24,-11,-90,-214,-435,59,-16,-52,-29,97,-548,146,-6,19,-55,304,-215,-64,-44,6,-35,-255,-954,238,left
-17,84,148,571,-448,-83,-10,19,-17,-402,-208,-370,-20,-24,96,24,-132,-68,-9,-9,41,-56,33,-259,17,-26,25,-76,40,74,31,10,47,-295,224,-68,48,0,69,717,331,-21,5,-37,-76,-696,412,-122,12,-26,50,316,24,459,24,52,-21,323,411,-199,17,-42,-44,-154,381,49,19,21,41,-319,10,6,16,0,-6,195,457,82,-7,-31,1,-341,2,-24,-8,-20,43,277,552,328,19,48,-38,-58,231,-17,1,-1,27,152,355,91,-23,-9,20,67,247,3,-23,3,-6,11,476,175,-18,31,-36,-131,332,30,left
-32,32,-168,-507,431,37,-21,-62,22,118,53,-379,35,44,17,-7,-413,18,-18,8,34,930,142,-91,-12,-29,-48,-562,89,57,-4,-21,-21,-93,-16,25,8,21,46,501,-273,-10,-2,-21,-121,-678,113,222,31,53,87,403,-749,-170,-5,-48,-116,-295,87,42,20,31,55,397,-580,-141,20,20,13,-440,-136,-92,3,-21,15,210,-252,4,-1,-23,64,-308,-101,-88,-10,-11,-51,286,134,129,-21,-28,-47,-396,-473,0,-21,-19,11,257,-150,236,5,57,-49,141,-427,224,-14,36,-14,-113,-659,-148,6,36,34,26,-300,-186,left
-60,-60,-38,-535,-766,-136,-28,0,150,759,-346,132,-5,6,15,-306,154,-126,36,34,71,1327,419,-77,-12,-28,-59,-1616,-580,-357,24,-26,57,109,495,327,11,37,38,166,-186,-316,9,-36,46,53,573,211,17,-5,-58,-139,350,178,33,35,-3,87,64,-112,-42,-22,-153,252,3710,210,10,10,22,-184,-337,-12,-11,-33,-14,188,-41,-33,25,46,1,38,-351,34,-2,8,60,134,73,-234,13,-29,-87,-517,-215,367,-9,-21,13,281,-228,-9,37,83,2,139,-331,-201,-15,-52,-16,-132,-228,-26,7,-16,7,-64,-202,36,left
-7,-25,44,9,-220,40,14,36,16,6,73,43,8,-15,-19,-331,-149,-55,-3,-5,59,355,-17,67,-10,-5,-34,-135,171,90,-10,-8,-71,15,-292,-42,-16,0,-9,250,-299,153,-6,29,-45,-27,-497,18,-12,-28,10,-181,-267,-28,-12,6,37,41,-565,93,-9,38,56,260,-45,-29,-7,2,-52,-74,7,-23,-4,7,11,45,-533,-342,-8,-15,32,-244,-446,-127,-24,-44,103,91,74,79,36,53,-17,602,217,113,1,-4,0,-646,12,-152,15,10,108,373,33,-120,41,-36,-26,-261,760,143,25,22,-19,150,262,-237,left
-111,-59,-94,-430,4122,628,38,106,12,60,-446,-117,-19,-112,-69,-683,406,44,19,116,81,1787,-344,-170,-36,-87,-161,-1068,418,271,41,66,47,482,-807,-572,8,-56,-69,-744,-480,487,14,22,73,782,-40,-518,28,12,-88,-924,-846,204,-4,-61,62,-283,326,230,32,45,26,752,-706,-249,-14,-28,56,-465,86,31,17,19,-16,621,-328,159,0,18,53,-265,-20,-132,3,-8,-24,252,89,11,-11,-32,11,-218,-24,62,14,44,24,325,-11,-90,-19,-35,-47,-258,61,12,-38,-27,-78,21,-276,214,-19,-10,-120,250,-291,101,left
-10,41,15,-117,-1021,28,-14,32,46,90,-617,2,-35,-25,55,-227,-340,-253,3,27,17,278,-313,9,-26,-23,81,-641,52,-63,22,-2,51,575,411,242,29,43,-50,-198,-162,-113,12,12,70,-196,140,-304,8,-33,46,74,155,38,22,-10,-13,-14,412,-13,-54,-48,-141,-147,4600,610,34,115,77,397,-531,-89,-20,-72,-129,-509,256,-43,23,45,69,849,-388,-322,-14,-57,-86,-989,108,96,49,48,16,529,-854,9,-12,-42,-7,-119,173,-148,40,53,-13,-303,-924,-80,-22,-68,28,247,247,0,10,17,47,114,-598,-40,left
6,-18,-39,9,153,127,-5,-13,44,51,-203,-27,14,39,-17,44,-92,81,2,-28,39,-107,-136,29,4,17,1,70,178,71,4,18,15,-114,-228,-111,-6,-16,-5,32,178,89,-7,-2,-47,-90,-40,-22,-16,-11,-50,91,-356,-33,-8,8,-23,11,-385,-31,-46,-61,-2,-277,-337,4,-4,36,-36,463,-395,384,-25,23,36,-135,-502,131,8,64,15,203,-434,-158,-20,-6,86,-624,-458,-290,8,-27,48,205,161,-31,-5,-23,17,232,-114,45,31,19,91,522,306,-110,14,-12,-64,-542,426,68,29,8,35,282,282,-143,left
-35,-34,-149,-249,4078,209,15,21,12,-1,-241,-54,8,-1,-34,-302,-217,3,-3,23,60,322,-217,-111,-21,-27,-39,492,347,63,36,32,-67,-829,-461,168,-17,-23,118,462,6,-312,22,40,-92,-152,-442,115,-15,-86,-21,-424,198,79,31,81,102,306,-742,-152,-12,-68,-94,380,549,-70,15,30,2,-418,-853,-150,-22,-47,27,-106,108,386,14,24,18,211,-263,-90,9,17,46,-169,-131,-23,-7,-29,-12,143,154,225,28,60,27,83,-123,-180,-17,-39,-12,-370,8,-9,-10,6,30,373,83,29,-11,-17,-135,-183,-119,129,left
-15,-2,18,290,-465,110,-6,34,-32,-170,-344,-168,-15,-24,2,-88,-415,73,-21,14,3,-391,-536,185,0,-19,28,517,-148,-109,-48,-4,-5,-275,-591,12,-13,19,117,838,190,316,19,73,-31,-277,-139,-439,33,-14,72,-37,131,-197,18,-28,-46,-524,-167,-60,94,-43,124,94,1962,125,17,19,20,241,514,-67,-3,-15,-24,-39,323,29,-3,-16,8,-36,234,-45,-26,-22,4,158,297,221,-18,20,30,43,275,267,-13,36,11,283,768,36,-14,30,-73,-286,392,180,6,31,-5,285,307,-472,-31,-70,-110,-363,14,-84,left
-11,17,38,52,-393,3,-32,-37,-66,-436,312,85,31,68,12,372,-539,-25,-23,-62,-57,-270,161,-82,27,56,44,469,-345,-46,1,-30,-95,-461,-37,26,30,25,102,567,-505,-225,6,0,-76,-588,-136,74,7,-17,37,306,-132,-378,-5,-40,0,-154,-258,465,-7,-6,16,209,189,253,23,38,-39,-103,-241,-190,-2,-13,0,-7,-263,146,1,2,34,-2,-138,-245,15,-1,15,-240,-213,91,-8,-9,25,132,128,10,11,19,-2,9,-82,69,-8,-13,23,-239,-22,-111,-1,-2,-7,273,89,113,-12,-14,-43,-162,-2,117,left
15,-12,160,-84,-1012,-457,36,53,-40,371,134,97,-4,-56,30,-364,366,14,11,26,16,540,87,22,-17,-58,-19,-567,542,192,18,51,40,501,156,47,-25,-29,-34,-243,558,157,-1,49,36,182,138,52,-14,22,-25,-53,535,4,-21,-11,-54,-60,106,7,-3,9,-8,31,268,-187,-32,-35,-62,-64,154,54,7,20,3,-115,-167,-7,-12,5,11,105,173,-26,6,1,-67,-188,-291,-32,-7,-11,55,158,251,-190,-8,-17,-62,26,-346,157,10,-18,21,-213,171,190,19,60,-22,249,-297,-214,7,-12,-7,-172,-94,144,left
5,-50,-45,-96,-145,-134,26,67,38,269,-619,-327,-6,-56,-18,-212,-146,270,11,26,1,73,-536,-70,5,-14,73,125,-43,5,12,9,-13,-20,-45,32,0,3,32,50,-2,-17,4,3,-23,-90,-64,6,-2,-23,38,-93,-90,-28,-6,7,17,96,196,96,-58,-42,-154,348,-314,145,-6,7,-53,-253,-650,179,-3,52,1,91,-639,8,-22,7,63,-401,-553,-101,6,-21,41,240,21,-44,-18,9,10,0,-526,-111,-9,5,45,516,52,-79,-20,-3,4,-507,-425,-14,13,24,52,267,217,36,2,4,21,-415,7,-231,left
34,13,33,459,325,90,19,-27,51,-352,296,-293,29,-18,-42,36,524,186,13,-10,47,-128,228,-101,37,-2,-27,14,495,279,-7,-10,48,46,139,-119,25,29,-32,-70,669,148,0,-32,-44,129,-100,-169,-9,4,65,-23,428,187,-4,7,-14,217,507,52,-3,1,-53,-73,146,44,-5,16,1,-63,153,35,-23,18,61,-147,142,8,-22,-4,-2,356,770,-6,-8,1,-83,-155,118,-103,-27,-49,-26,295,115,9,6,62,-30,-414,-326,110,-26,-41,34,436,439,-71,-28,-35,-120,-1009,292,180,40,81,61,940,-648,-239,left
23,-43,160,-436,-3896,-323,36,5,-26,111,433,299,5,-10,3,-139,279,-72,27,40,8,414,292,28,6,-43,-31,-398,481,-100,5,33,0,46,105,41,3,-29,10,-32,335,-10,6,16,-34,62,-9,-83,-22,-48,30,72,185,165,2,28,-11,159,374,79,3,8,38,-188,121,73,-16,24,8,243,572,-70,-12,6,-37,-152,138,16,-17,-21,-13,-98,301,-30,-33,26,-1,54,166,7,-19,-58,-2,180,463,109,2,18,-86,31,138,-17,24,42,-35,-320,-494,91,-14,-19,23,-45,67,-305,-9,19,-26,75,-169,-58,left
-19,-62,-38,-6,-23,163,28,71,53,-90,-295,-138,5,-50,-87,34,-84,224,22,56,100,356,-291,-360,-12,-58,-37,-204,-43,157,13,27,15,138,-56,267,4,-31,-61,-201,140,-217,32,61,5,50,-727,22,-17,-36,9,-65,78,-37,14,48,1,121,-398,-114,-125,-68,63,-316,-2945,-21,10,-12,87,298,165,37,32,44,-21,59,197,2,4,-13,27,-67,-78,-144,19,2,53,-253,424,89,16,-26,-19,-96,516,87,41,58,-23,-39,83,91,7,-41,66,-174,276,-191,24,-7,2,656,694,230,2,-22,-8,-134,246,-104,left
7,16,-36,-288,464,181,-2,6,30,494,176,-124,-7,3,-38,-159,367,75,-6,20,9,13,138,-40,-11,2,-9,158,404,21,-17,-24,-39,-485,290,-35,-13,28,-5,359,-23,-96,-17,-33,1,-235,41,125,-23,-5,-9,-29,335,15,10,38,-8,563,-10,-173,-16,-31,-106,-612,-75,151,-5,-17,75,-7,-42,-64,17,51,-27,278,-140,40,-9,-35,-16,92,116,-79,13,59,28,166,-510,-74,-19,-78,-46,126,342,18,32,65,-3,-206,-388,126,-3,-24,-21,-178,36,68,10,34,21,185,-233,-269,-17,-62,-22,-549,100,100,left
